File: gsoc_xylib/samples/uxd/sample4.uxd
; C:\httpd\HtDocs\course\content\week-1\sample4.raw - (Diffrac AT V1) File converted by XCH V1.0
_FILEVERSION=1
_SAMPLE='DM1'
_WL1=1.540560
_WL2=1.544430
_WL3=1.392600
_WLRATIO=0.514000
_ANODE='Cu'
; (Data for Range number 1)
_DRIVE='COUPLED'
_STEPTIME=15
_STEPSIZE=0.020000
_STEPMODE='C'
_START=4.990000
_2THETA=4.990000
_THETA=0.000000
_KHI=0.000000
_PHI=0.000000
_TEMPERATURE=-17
_COUNTS
     1926      1984      2001      1853      1920      1767      1902      1920
     1893      1768      1784      1849      1786      1849      1788      1859
     1855      1840      1730      1831      1790      1791      1716      1734
     1730      1703      1660      1717      1767      1736      1730      1684
     1671      1688      1660      1648      1568      1607      1637      1560
     1651      1602      1613      1604      1531      1623      1558      1568
     1516      1532      1524      1545      1572      1580      1627      1507
     1544      1526      1519      1443      1469      1483      1477      1442
     1469      1455      1441      1461      1534      1471      1458      1447
     1457      1462      1395      1441      1439      1343      1365      1443
     1384      1402      1363      1402      1401      1389      1380      1383
     1333      1326      1423      1359      1367      1309      1358      1342
     1356      1361      1348      1362      1296      1301      1294      1328
     1234      1275      1289      1285      1320      1245      1262      1266
     1253      1246      1242      1224      1210      1208      1218      1266
     1195      1264      1197      1189      1248      1248      1156      1204
     1199      1181      1213      1128      1130      1148      1189      1171
     1119      1128      1154      1137      1121      1124      1077      1145
     1095      1137      1148      1093      1078      1129      1135      1076
     1093      1086      1101      1155      1085      1164      1053      1097
     1094      1072      1071      1055      1064      1130      1030      1125
     1071      1022      1066      1087      1094      1082      1086      1062
     1092      1119      1161      1149      1165      1169      1248      1234
     1228      1299      1357      1397      1440      1575      1581      1719
     1821      1969      2064      2219      2572      2859      3114      3191
     3625      4278      4934      5624      6188      7077      8299      9721
    11802     13464     15485     17772     20690     24458     29634     35697
    42234     48504     52758     56034     60926     65049     68986     70264
    65095     55508     44508     32148     21823     13289      6895      3056
     1660      1423      1195      1030       960      1018       921       975
      901       881       867       899       870       874       921       798
      895       847       841       856       914       809       899       878
      869       841       828       823       848       792       796       847
      809       778       821       830       816       777       746       791
      824       819       789       773       734       698       778       740
      819       787       704       752       786       760       782       786
      743       759       795       710       709       710       711       730
      775       637       740       745       762       811       769       705
      714       727       740       723       753       717       724       674
      709       736       707       686       708       709       709       687
      720       685       735       776       715       677       726       692
      700       673       676       682       649       665       685       712
      705       649       729       681       681       667       679       668
      689       651       669       701       676       664       652       665
      663       628       662       629       682       709       698       655
      670       674       676       693       633       662       738       782
      763       835       824       851       884       876      1024      1037
     1189      1322      1505      1640      1824      2135      2364      2626
     3015      3350      3754      4293      4583      5416      6580      8061
     9678     12374     15638     19612     23044     26221     28810     29992
    30116     28555     25692     21420     16793     12691      9223      6445
     3773      2220      1416      1043       840       876       793       740
      786       822       753       800       800       828       852       862
      976       954      1052      1081      1075      1105      1102      1102
     1120      1122      1110       932       896       867       750       657
      679       622       634       660       549       608       609       601
      682       640       682       659       717       791       801       838
      870       929       977      1053      1106      1167      1376      1436
     1703      1855      1986      2030      2183      2135      2059      1965
     1794      1492      1187       977       846       724       619       578
      597       572       555       559       574       538       529       579
      491       539       549       558       460       476       475       559
      529       519       502       576       525       528       528       580
      573       532       518       550       477       523       530       536
      517       526       493       571       530       503       535       480
      546       502       495       502       545       522       509       502
      478       488       513       539       479       477       529       471
      522       496       459       525       490       521       476       497
      460       497       491       487       484       525       496       456
      475       504       501       461       494       457       473       452
      509       467       506       464       470       520       493       520
      459       488       497       488       442       475       434       480
      476       493       480       469       458       465       488       483
      480       489       481       485       456       493       501       471
      450       480       466       481       435       485       491       488
      482       471       454       499       452       487       466       488
      488       529       518       549       566       577       630       629
      699       760       906       927      1006      1105      1224      1463
     1777      2006      2380      2813      3406      3955      4360      4631
     4718      4777      4408      4142      3516      2695      2165      1570
     1130       902       638       598       530       479       533       502
      475       435       457       506       467       512       499       449
      477       464       417       458       454       425       457       477
      442       526       475       534       548       521       559       654
      684       653       736       790       953       997      1078      1241
     1422      1552      1942      2149      2717      3192      4015      5024
     6510      8235     10070     12372     14509     15531     15439     14163
    11955      9409      6658      4562      2909      1649      1020       780
      596       569       505       496       511       476       478       462
      449       490       470       486       527       523       474       535
      545       542       519       527       603       643       728       756
      843       955      1113      1269      1614      1913      2475      2878
     3298      3774      4275      5092      5435      5573      5680      5192
     4436      3564      2639      1978      1461      1113       855       801
      759       749       748       696       726       727       677       641
      615       549       545       499       480       471       471       490
      504       481       535       482       511       570       564       572
      622       677       782       887      1044      1240      1429      1558
     1675      1883      1873      1819      1807      1613      1300      1038
      894       726       675       625       654       693       724       823
      837       933      1060      1275      1482      1681      2043      2504
     3070      4008      4856      6165      7265      9072     10709     13434
    16873     20539     25348     30674     34093     38088     42072     42589
    40593     36975     32152     25901     19513     13691      9038      5487
     3041      1946      1313       985       850       740       702       643
      618       556       512       514       488       528       475       480
      492       483       506       474       476       482       474       450
      451       491       481       460       448       417       449       441
      433       452       455       453       453       475       455       419
      421       437       442       459       442       451       399       456
      441       471       430       432       420       449       444       419
      483       450       438       389       420       450       431       476
      405       398       440       418       426       400       457       452
      407       414       450       452       457       457       473       434
      425       439       430       455       434       447       498       481
      492       516       525       571       597       619       633       701
      778       945      1073      1193      1458      1668      1808      1890
     1912      1744      1523      1312      1016       905       790       701
      597       546       629       559       534       532       627       596
      656       750       780       834       994      1115      1139      1302
     1462      1705      1982      2415      3076      3804      5045      6254
     7238      8158      8340      8231      7672      6322      5091      3602
     2726      1775      1227       992       737       683       647       648
      681       658       646       669       678       677       726       660
      694       648       707       608       623       660       690       670
      740       732       734       744       856       970      1118      1326
     1645      1924      2259      2589      3256      4304      5560      7146
     8948     11192     14118     17438     19252     20068     21251     20717
    19474     17582     14803     12466     10065      7706      5570      4021
     2749      1954      1426      1105       887       867       839       760
      725       734       651       644       676       674       688       787
      710       895      1018      1056      1328      1616      1891      2335
     2951      3758      4550      5169      6050      6189      5841      5416
     4787      3881      3048      2352      1854      1480      1303      1197
     1226      1407      1627      2055      2507      3024      3531      3822
     3850      3643      3455      2960      2421      1934      1429      1096
      889       722       712       659       648       652       622       648
      703       669       613       639       672       716       790       872
     1020      1189      1361      1623      2005      2484      3161      4094
     5614      7621     10131     12810     14876     16138     16400     15786
    13857     11477      9195      6608      4658      3194      2123      1588
     1293      1024       949       947       870       880       867       965
     1086      1199      1254      1455      1687      2086      2599      3336
     4509      5550      6657      7546      7623      7549      7225      6022
     4896      3802      2689      1958      1554      1326      1311      1501
     1620      1963      2252      2948      3807      4862      6706      8737
    11359     13967     15561     15735     15445     14375     12132      9422
     6892      4742      3026      2102      1365       963       796       736
      723       720       716       707       739       733       853       786
      911      1027      1094      1268      1392      1554      1532      1543
     1479      1425      1342      1140       988       873       782       851
      764       796       836       932       998      1115      1334      1560
     1958      2468      3267      4133      5376      6715      8095      9718
    12066     14956     18423     20249     20412     19285     17741     15493
    12846     10257      7181      4568      3041      2257      1575      1081
      830       735       687       632       656       603       595       613
      578       584       572       512       565       579       557       593
      569       630       626       677       736       801       953       992
     1174      1355      1632      1879      2118      2094      2124      2085
     1888      1652      1430      1062       926       795       722       623
      548       575       537       555       523       510       560       555
      554       540       574       586       619       622       633       699
      798       879      1065      1225      1438      1836      2331      3009
     3842      4885      6189      7649      7812      7219      6959      7040
     5823      4295      3036      2261      1750      1281       945       744
      639       621       632       594       627       628       614       662
      643       594       629       616       575       539       568       492
      553       544       549       542       533       577       606       658
      733       738       969      1041      1336      1723      2120      2544
     3031      3391      3504      3377      3314      3011      2554      2031
     1624      1308      1008       807       686       598       499       550
      553       520       512       518       481       485       474       535
      497       500       483       471       489       461       488       526
      532       476       515       603       659       624       810       914
     1025      1018      1183      1183      1019      1012       908       891
      732       691       706       622       633       596       579       631
      568       581       646       680       684       676       698       694
      654       647       592       531       465       527       531       491
      570       615       655       625       634       603       634       605
      554       506       547       527       514       488       512       500
      555       536       606       626       727       815       872       942
      943      1013      1103      1035      1145      1295      1596      1911
     2411      2716      2701      2602      2628      2343      2072      1562
     1341      1064       810       776       658       548       578       536
      521       529       572       522       580       577       606       576
      583       627       682       715       790      1056      1251      1274
     1488      1840      2688      3439      4779      6426      7782      8586
     8912      9320      9329      8545      7468      5977      4694      3435
     2594      1913      1412      1059       848       750       780       775
      796       845       962      1027      1252      1419      1695      1837
     1967      1981      1943      1940      1776      1739      1578      1471
     1416      1616      1798      2187      2648      3146      3271      3446
     3492      3391      2987      2656      2120      1818      1396      1202
      926       823       642       611       600       594       564       610
      607       553       578       606       568       522       562       501
      540       584       542       515       530       627       626       699
      816       898      1130      1303      1506      1624      1772      1872
     1950      2146      2388      2320      2338      2078      1956      1693
     1622      1542      1534      1527      1728      2027      2358      3140
     3915      5024      6223      7424      8005      7976      7638      6979
     6092      5329      4240      3174      2342      1649      1282      1050
      781       636       609       590       563       540       547       505
      556       499       489       523       487       473       492       486
      566       553       528       573       607       651       705       814
      830       884      1005       961      1037       990       917       885
      851       770       715       689       646       712       703       839
      972      1190      1419      1778      2518      3565      4659      6840
     8731     10241     11385     11425     11125     10210      8834      7535
     6195      4724      3654      2821      2143      1696      1422      1356
     1253      1182      1053       981       945       903       865       744
      735       640       642       528       537       552       545       512
      500       539       554       541       572       580       752       778
      864       825       898       849       806       795       749       707
      628       557       495       542       486       470       523       468
      512       546       607       580       570       582       563       589
      539       580       630       629       665       834       975      1109
     1332      1439      1746      1767      1821      1812      1962      2311
     2779      3659      4575      5110      5453      5338      5180      4970
     4454      3734      2849      2150      1747      1348       972       753
      628       597       566       570       581       616       660       676
      715       688       680       696       707       660       608       594
      564       495       502       486       459       440       472       512
      534       524       488       537       649       720       854       999
     1149      1461      1843      2075      2198      2335      2172      2038
     1957      1705      1534      1286      1081       898       737       729
      608       626       642       557       556       571       590       594
      578       602       563       564       582       583       647       634
      802      1027      1316      1773      2099      2698      3191      3935
     4232      4128      3876      3739      3444      3025      2556      2175
     1765      1429      1251      1169      1176      1243      1383      1584
     1629      1767      1835      1969      2213      2549      3009      3802
     5129      6524      8016      8895      9243      9530      9516      9080
     8744      8225      6978      5756      4714      3882      3210      2749
     2157      1740      1390      1245       967       872       743       655
      588       545       535       522       440       458       466       515
      414       455       449       409       463       459       461       455
      428       419       456       448       413       445       418       460
      436       441       437       428       435       468       430       478
      476       510       574       556       680       746       851       955
     1072      1215      1437      1752      2033      2234      2339      2410
     2455      2439      2389      2344      2269      2199      2058      1967
     1850      1755      1687      1621      1468      1549      1364      1230
     1076       933       835       753       659       670       657       538
      592       569       614       595       640       656       626       646
      641       581       615       619       580       599       529       500
      529       516       517       522       526       554       563       605
      663       672       794       864       793       839       767       725
      708       639       619       577       533       494       484       411
      419       414       396       418       392       367       369       378
      405       388       368       395       397       407       429       395
      431       417       389       423       437       408       441       477
      515       517       597       655       671       686       693       686
      690       686       748       728       737       816       900      1025
     1242      1316      1570      1772      1867      1997      2389      2457
     2478      2537      2500      2375      2177      2006      1690      1460
     1237      1105       963       797       662       595       552       504
      458       445       471       519       488       542       557       553
      627       797       887      1031      1416      1856      2309      3005
     3719      4212      4537      4728      4577      4795      4905      5016
     4968      5121      4833      4098      3389      2881      2569      2324
     1933      1644      1269      1058       920       874       920       930
      935      1035      1014       962       913       833       818       762
      674       665       664       664       695       773       834       869
      820       849       777       743       777       688       660       572
      549       516       475       403       400       395       376       386
      398       397       383       400       361       387       418       456
      460       561       614       701       838      1051      1138      1106
     1113      1075      1111      1111      1136       897       885       699
      625       642       605       531       506       475       512       492
      644       708       853      1093      1460      1915      2351      2610
     2749      2544      2405      2331      2280      2325      2265      2169
     1909      1832      1678      1679      1550      1509      1372      1274
     1234      1160      1118       954      1027      1089      1182      1392
     1552      1723      1983      2005      2033      2092      2132      2169
     1948      1841      1607      1484      1417      1268      1105       941
      796       721       668       696       691       680       869      1086
     1311      1693      2307      2847      3434      3784      3907      3786
     3628      3338      2922      2709      2243      2076      1764      1352
     1197       850       672       557       504       453       412       463
      427       439       457       455       491       529       558       604
      711       913      1198      1504      1705      2012      2100      2244
     2482      2627      2613      2491      2346      2080      1835      1586
     1422      1156      1022       845       733       602       541       451
      445       417       421       353       398       406       447       469
      428       421       400       415       473       501       529       574
      584       597       671       709       714       783       720       849
      831       836       844       899       889       794       846       844
      795       757       801       731       701       683       688       618
      566       504       490       452       464       434       422       357
      388       406       415       384       395       376       402       374
      364       326       372       355       354       347       397       377
      361       390       380       447       453       465       533       588
      630       650       667       685       710       784       808       908
     1227      1360      1768      1920      2120      2284      2410      2503
     2597      2533      2266      1907      1685      1581      1481      1339
     1328      1124       965       863       716       711       680       658
      605       589       534       493       512       436       394       388
      397       386       402       387       383       460       439       573
      580       689       742       720       672       661       667       624
      637       637       628       664       595       600       600       517
      520       504       493       443       456       441       372       394
      387       397       371       382       353       377       403       442
      462       484       564       571       589       610       546       602
      653       753       872       999      1203      1466      1796      1905
     2000      1997      1775      1603      1586      1484      1573      1571
     1611      1578      1605      1447      1481      1379      1288      1242
     1185      1059      1020       892       830       775       670       618
      549       516       421       400       400       387       374       372
      330       366       339       379       352       381       421       365
      422       432       501       540       628       700       784       796
      779       834       837       814       824       757       716       657
      631       580       614       556       534       518       555       596
      624       704       755       702       694       684       630       613
      632       562       569       521       514       534       541       535
      584       589       691       777       835       912       901       816
      786       696       667       719       661       655       618       640
      621       627       637       602       647       618       626       665
      663       705       755       770       795       790       839       843
      801       814       764       771       728       699       646       650
      619       653       603       669       713       774       982      1412
     1809      2367      3054      3474      3455      3457      3312      3231
     2839      2727      2714      2506      2255      2148      1940      1738
     1520      1439      1513      1563      1703      1812      1950      2130
     2225      2283      2520      2664      2812      2708      2692      2297
     2096      1996      1731      1611      1474      1395      1066       953
      837       695       602       512       489       469       413       436
      434       424       431       442       488       482       491       434
      424       416       452       491       464       469       512       501
      550       674       727       810       946      1123      1309      1413
     1593      1648      1554      1572      1360      1332      1244      1271
     1251      1228      1039      1059       976       974      1021      1152
     1324      1513      1615      1749      1840      1761      1789      1574
     1360      1310      1224      1124      1081       997       915       782
      753       785       830       953       994      1109      1185      1191
     1137      1067       958      1022      1046      1138      1210      1289
     1256      1234      1186      1138       988       956       928       855
      818       788       772       812       762       818       940      1128
     1579      2161      2649      3517      4105      4682      4742      4517
     4230      3746      3423      3104      2950      2680      2481      2216
     1857      1533      1150       941       723       586       527       482
      471       477       481       481       504       548       608       635
      615       587       609       618       581       531       558       549
      536       542       588       616       612       637       687       756
      788       831       850       843       849       762       746       770
      739       770       712       707       703       689       620       616
      623       667       742       834       853      1001      1208      1371
     1468      1508      1685      1486      1369      1229      1136      1133
     1093      1073      1032       920       867       731       709       675
      728       779       921      1129      1390      1888      2422      2917
     3237      3623      3750      3661      3454      3120      2810      2543
     2237      2194      2211      2022      1780      1552      1210       899
      775       678       616       542       519       517       475       492
      506       468       534       544       576       642       627       685
      819       797       784       730       703       602       594       558
      546       578       522       533       497       488       388       402
      395       392       408       423       454       470       568       552
      594       645       633       589       635       682       707       747
      885       964      1119      1211      1284      1330      1206      1208
     1085       973       985       966       970       964      1061      1037
     1067       992       926       890       742       736       666       698
      666       706       693       734       772       859       829       819
      791       821       718       775       734       769       875       970
     1009      1060      1406      1630      1859      1850      1795      1728
     1610      1597      1532      1415      1342      1317      1190      1179
     1011       897       864       740       603       533       506       445
      406       368       393       361       389       388       366       368
      402       362       377       381       395       361       384       417
      447       542       521       597       624       678       702       653
      653       573       587       608       636       642       644       631
      644       673       686       628       588       574       581       543
      554       566       509       507       548       545       588       608
      667       871      1020      1322      1514      1656      1543      1561
     1537      1445      1500      1427      1532      1499      1576      1495
     1548      1614      1607      1758      1898      2023      2153      2182
     2133      2030      2024      2053      2131      2281      2682      2868
     3045      2954      2656      2456      2151      1835      1686      1502
     1447      1394      1288      1228      1143       889       748       668
      550       535       506       469       441       527       523       501
      443       496       532       515       500       498       568       541
      613       680       669       679       670       632       550       559
      556       470       479       523       489       487       458       444
      466       505       514       519       551       572       610       620
      545       612       520       529       506       524       604       591
      618       600       591       624       602       547       502       480
      486       479       553       554       517       579       582       650
      791       786       842       940       866       853       789       818
      859       752       878       750       857       796       785       750
      745       709       726       629       566       547       559       596
      568       621       574       552       545       511       538       495
      513       557       559       529       595       647       705       775
      892       885      1019      1006      1024      1098      1073      1103
     1073      1074       954       897       873       762       709       675
      688       661       575       545       551       466       434       395
      395       399       408       396       355       363       416       436
      497       496       556       599       680       769       903      1031
     1174      1181      1265      1174      1056       948       875       857
      758       862       851       853       829       810       742       656
      642       606       618       666       747       834       856       973
     1165      1163      1054      1107      1010       910       915       865
      758       787       776       769       715       644       654       605
      567       498       461       427       427       411       369       390
      369       408       354       348       407       405       403       399
      424       454       475       497       567       622       600       598
      658       669       776       839      1063      1176      1346      1376
     1399      1329      1293      1163      1075      1055      1098      1089
     1178      1200      1271      1197      1288      1128      1182      1176
     1190      1255      1354      1509      1632      1683      1691      1533
     1532      1477      1484      1521      1531      1465      1411      1259
     1230      1118      1073      1056      1019      1108      1039       948
      867       850       762       757       655       645       715       695
      724       704       706       721       687       676       698       610
      662       754       888      1161      1453      1849      2317      2726
     3278      3542      3520      3312      2886      2489      2161      1836
     1797      1742      1940      2042      1931      1764      1544      1277
     1054       853       794       703       637       595       575       563
      474       477       496       496       507       493       539       594
      615       670       734       818       866       960       963       911
      830       880       884       838       851       926       953      1020
      918       917       842       853       733       695       660       630
      638       691       862      1042      1387      1401      1392      1378
     1371      1349      1312      1333      1368      1425      1622      1579
     1739      1874      2052      2226      2319      2328      2320      2207
     1981      1811      1630      1438      1346      1300      1272      1214
     1203      1084      1011       839       789       637       643       491
      454       449       416       416       381       356       397       407
      385       406       472       469       486       559       700       891
     1088      1252      1370      1333      1348      1207      1055       956
      938       848       854       873       940       951       875       827
      803       731       735       708       592       609       593       529
      487       507       519       523       511       507       556       499
      517       525       505       537       523       562       613       643
      658       717       784       791       792       788       742       716
      669       679       602       627       664       700       803       834
      778       732       717       671       595       535       564       491
      517       494       485       429       451       455       397       383
      365       373       367       364       320       346       383       381
      364       377       398       403       435       409       424       484
      476       509       599       647       787       933      1154      1290
     1385      1513      1495      1446      1413      1188      1118      1060
     1066       996      1194      1241      1218      1333      1324      1314
     1294      1197      1035      1017       994       917       852       826
      959       959      1062      1050      1070      1170      1254      1233
     1182      1108      1074       999       883       751       708       627
      702       663       703       702       662       655       597       560
      476       477       446       419       371       403       416       390
      410       428       458       457       475       494       481       483
      509       442       508       501       517       493       419       444
      439       371       422       392       381       404       381       384
      369       374       340       369       338       343       367       340
      356       361       335       356       315       317       342       340
      382