File: gsoc_xylib/samples/uxd/sample3.uxd
; C:\httpd\HtDocs\course\content\week-1\sample3.raw - (Diffrac AT V1) File converted by XCH V1.0
_FILEVERSION=1
_SAMPLE='ZK'
_WL1=1.540560
_WL2=1.544430
_WL3=1.392600
_WLRATIO=0.514000
_ANODE='Cu'
; (Data for Range number 1)
_DRIVE='COUPLED'
_STEPTIME=15
_STEPSIZE=0.020000
_STEPMODE='C'
_START=3.990000
_2THETA=3.990000
_THETA=0.000000
_KHI=0.000000
_PHI=0.000000
_TEMPERATURE=-17
_COUNTS
     2668      2571      2525      2567      2532      2551      2597      2576
     2412      2452      2404      2425      2486      2443      2457      2349
     2324      2393      2285      2258      2331      2247      2334      2271
     2296      2315      2244      2259      2270      2179      2188      2162
     2126      2076      2110      2076      2074      2146      2085      2076
     2118      2032      2039      2020      2032      2002      1989      1997
     1973      1915      1976      1983      1978      1932      1962      1979
     1868      1853      1942      1866      1952      1852      1841      1844
     1803      1852      1824      1784      1875      1840      1714      1862
     1814      1749      1782      1791      1719      1740      1696      1810
     1701      1741      1583      1736      1673      1658      1671      1569
     1652      1672      1635      1609      1617      1671      1598      1662
     1556      1652      1608      1620      1597      1561      1602      1575
     1584      1569      1544      1598      1501      1567      1571      1572
     1517      1515      1503      1548      1558      1569      1525      1512
     1489      1508      1475      1533      1516      1483      1470      1427
     1409      1425      1545      1493      1461      1494      1484      1393
     1418      1437      1405      1394      1405      1345      1337      1417
     1396      1327      1389      1357      1475      1405      1489      1387
     1368      1338      1385      1386      1347      1323      1314      1278
     1297      1333      1259      1263      1273      1329      1274      1309
     1293      1316      1232      1208      1232      1298      1282      1381
     1257      1213      1207      1270      1270      1267      1211      1248
     1297      1241      1212      1293      1260      1231      1280      1210
     1243      1271      1246      1254      1238      1222      1246      1140
     1141      1190      1213      1244      1146      1180      1214      1126
     1230      1194      1203      1186      1158      1184      1156      1171
     1155      1142      1127      1208      1153      1150      1083      1182
     1150      1116      1247      1155      1104      1185      1161      1166
     1184      1185      1222      1260      1296      1280      1251      1376
     1403      1464      1492      1520      1577      1619      1633      1780
     1851      1861      2084      2219      2466      2424      2686      2754
     3073      3316      3807      4184      4478      4742      5292      5812
     6563      7586      9019     10476     12216     14327     16502     18799
    20862     22684     23892     25521     26450     25997     25801     24252
    20967     16832     12571      9129      5899      3640      2275      1573
     1410      1291      1220      1207      1229      1158      1169      1218
     1222      1210      1220      1300      1267      1252      1255      1152
     1112      1046      1046      1019      1017       981      1025       967
     1052       964       952       998      1045      1017       971       979
      987       953       938       978       951       936      1029       949
     1028      1020       961       995      1009      1003       996       972
      947       985       963       974       999       962       941       997
      925       971       931       912       932       945       962       964
      888       897       948       943       950       921       909       914
      952       929       907       941       909       928       931       900
      972       946       947       901       901       904       917       905
      935       972       951       917       920       962       925       912
      909       906       923       959       929       920       876       902
      974       949       998       960       920       895       924       944
      928       944       941       928       930       907       947       875
      910      1003       942       889       964       972       943       932
      967       967      1058      1033      1079      1077      1102      1206
     1280      1267      1360      1395      1448      1488      1573      1743
     1891      2003      2326      2533      2867      3130      3487      3906
     4420      4736      5254      5793      6073      6649      6652      5964
     5065      4010      3132      2241      1790      1394      1172      1115
      996      1018       952       964       983       981       984       952
      964       921       916       964       959       942       914       902
      976       965       978       975      1031      1011      1021      1043
     1060      1074      1118      1076      1110      1206      1270      1248
     1384      1410      1416      1613      1754      1967      2259      2423
     2546      2632      2724      2755      2829      2699      2547      2204
     1988      1672      1427      1275      1127      1035      1019       913
      981       937       991       924       920       952       933       960
      989       940       987       965       932       939       909       951
      861       888       925       941       892       988       922       905
      931       957       977       972       924       892       957       965
      922       949       957       967       968       899       995       905
      943       935       942       943       931       965       905       970
      954       936      1019       987      1011       953       974      1005
      984       978      1037      1000      1014      1051      1024      1073
     1053      1142      1192      1205      1285      1283      1417      1463
     1572      1694      1927      2012      2404      2486      2860      3150
     3552      4136      4997      5885      7117      8402      9762     10952
    12299     12676     12631     11970     11032      9288      7387      5542
     4068      2839      2041      1559      1314      1213      1116      1078
     1045      1071      1108      1062       977      1027      1008       989
      987      1003       961      1025       976       967      1007       979
     1009       969       966       966      1010       931       979       946
      993       990      1004       964       937       984       961      1001
      923      1022       970       999      1006       962       977       924
      980      1011       975       906       980      1027       955      1035
     1037       999      1078      1099      1179      1180      1307      1323
     1411      1518      1602      1842      2044      2314      2789      3149
     3488      4171      5072      5726      6763      7872      9287     10269
    10789     11036     11255     10963      9998      8311      6403      4704
     3287      2391      1742      1433      1280      1139      1050      1063
     1003       963       989      1055      1026       997       974       957
      941       911       923       967       975       989       985       954
      947      1026       974       945       943       928       942       939
      968       987       985       918       982       990       998      1014
     1046      1022      1090      1178      1234      1212      1380      1394
     1489      1628      1892      2148      2331      2816      3166      3597
     3909      4008      3969      3687      3401      3099      2450      2173
     1758      1434      1216      1103      1074       921      1020       981
      968       911       973       922       987       924       932       967
      892       975       965       921       899       945       919       936
      925       904       924       968       889       922       946       978
      954       995       973       981       968       984       951       961
      966      1003      1037      1056      1088      1140      1190      1300
     1266      1425      1496      1620      1723      2032      2156      2578
     3119      3508      4247      5119      6309      7812     10208     12820
    16390     20650     24442     29602     35029     39565     42501     44072
    41862     38194     32580     25382     18407     12485      7818      4992
     3163      2293      1833      1606      1363      1316      1263      1193
     1114      1027      1043      1022      1022      1004       984      1017
     1003      1010       981       962       960       949       985       969
      936       932       896       858       916       969       930       925
      901       899       924       938       942       914       934       937
      974       921       947       978      1025       930       982       911
      945       972       963      1009      1062      1075      1183      1264
     1390      1386      1491      1566      1717      1687      1688      1690
     1500      1442      1320      1270      1224      1139      1224      1244
     1335      1450      1512      1727      1884      2244      2533      2602
     2750      2637      2615      2430      2036      1828      1539      1294
     1207      1086      1114      1005      1040      1077      1137      1092
     1095      1151      1206      1359      1469      1596      1816      2096
     2431      2859      3463      4171      5100      6146      7368      8492
     9402      9564      9705      9013      7949      6089      4951      3672
     2859      2055      1583      1314      1114      1072      1005       962
      927      1009      1012       950       903       964       944       916
      920       953       911       893       957       915       889       944
      893       879       907       912       848       928       920       877
      896       906       920       928       910       848       884       840
      850       833       937       864       888       935       868       907
      904       878       871       923       955       901       906       944
      889       978       938       979       966       941       964       978
     1048      1048      1090      1172      1175      1220      1231      1356
     1477      1663      1744      2036      2429      2901      3533      4574
     5707      7003      8426     10904     14618     18454     20535     20873
    19810     17610     14462     11448      8520      5770      3962      2857
     2154      1618      1375      1271      1230      1125      1097      1130
     1030      1017      1035      1037      1050      1101       988      1003
      997      1005       966      1005      1007      1054      1047      1091
     1084      1140      1228      1298      1384      1596      1829      2070
     2502      3034      3600      4215      5306      6214      7266      7917
     8317      8513      8210      6869      5437      4157      3246      2347
     1709      1431      1243      1163      1072      1079      1026       993
      962       939       928       989       918       952       944       967
      965       970       962       926       930       984      1017       944
      923       978       914       953       872       965       906       940
     1004       925       940       959       967      1012       971       959
      941       931       963       950       990       929       924       964
      954       938       977       947       927       955       929       930
      955      1013       968       890       956       931       974      1020
      992      1117      1086      1131      1114      1185      1269      1451
     1570      1727      1987      2277      2563      2850      2951      2930
     2753      2630      2416      2132      1810      1507      1307      1273
     1210      1162      1171      1189      1277      1326      1415      1613
     1841      2108      2481      2820      3273      3873      4393      4618
     4827      4667      4133      3579      3066      2579      1992      1692
     1398      1205      1079      1091      1031      1061      1054      1016
      988       988      1024       915       971      1014      1021       998
     1019      1099      1039      1037      1062      1051      1132      1017
     1037      1002       974       996       961       972      1029      1025
      980       987       962      1036       985       983       981      1006
      965       969      1022      1061      1018      1029       983       976
      980       975      1030       982       988       978      1018      1046
     1019      1006      1007      1005      1100      1060      1098      1072
     1081      1026      1005      1070      1066      1105      1086      1094
     1074      1026      1027      1092      1099      1095      1161      1146
     1120      1187      1176      1221      1196      1268      1266      1294
     1316      1393      1338      1326      1416      1420      1563      1517
     1583      1680      1842      1977      2208      2547      3080      3820
     4763      5877      7193      9735     13425     18891     24911     31973
    36659     40091     43901     47700     46158     39682     32397     28081
    23387     18740     15072     12919     11412     10095      8824      7844
     7254      6972      7215      8015      9377     11901     14326     16416
    18086     19117     19451     18379     16065     12551     10131      7704
     5626      3818      2685      2013      1739      1572      1524      1445
     1432      1425      1562      1618      1723      1870      2033      2336
     2555      2788      3010      3139      3051      2873      2762      2416
     2113      1886      1582      1403      1320      1249      1145      1098
     1118      1109      1089      1154      1080      1084      1107      1105
     1101      1125      1102      1122      1162      1199      1173      1212
     1336      1446      1595      1739      1900      2123      2323      2519
     2647      2625      2605      2648      2435      2175      1870      1632
     1540      1328      1262      1251      1157      1020      1093      1041
     1086      1119      1024      1021      1017      1114      1069      1066
     1089      1109      1066      1094      1094      1069      1093      1126
     1161      1096      1165      1116      1112      1053      1082      1211
     1246      1282      1258      1398      1436      1612      1765      1971
     2162      2409      2673      2936      3092      3396      3734      4414
     5030      5424      5511      5245      4732      4319      3918      3293
     2476      2024      1723      1408      1231      1154      1147      1094
     1081      1119      1146      1080      1105      1082      1006      1036
     1044      1076      1093      1077      1096      1054      1129      1083
     1111      1098      1154      1123      1146      1190      1169      1247
     1359      1458      1649      1846      2317      2808      3538      4249
     5281      6481      7385      8510      8352      8297      8004      7303
     6068      5032      4203      3294      2606      1954      1748      1571
     1399      1336      1359      1414      1478      1652      1793      1964
     2279      2391      2379      2449      2339      2256      2077      1973
     1731      1523      1349      1262      1220      1161      1084      1064
     1046      1043      1063      1012      1038      1067      1006      1043
     1041      1040       993      1083      1021      1068      1111      1019
     1039      1001      1070      1053      1079      1112      1125      1153
     1178      1140      1271      1344      1465      1631      1821      2186
     2902      3612      4419      5451      6545      7545      8383      8866
     8858      8569      7749      7166      5921      4977      3916      3168
     2470      2029      1691      1406      1303      1233      1142      1127
     1093      1083      1048       989      1027      1049      1013       964
     1001       958      1000      1001      1001       992      1013       945
      963       942       972      1015       962       961       976       937
      990       990       990       937       945       897      1002       965
      928       945       949       963       924      1028       937       875
      952       964       949       966       913       952       921       932
      962       984       966       983       947       948       969       897
      939       957       928       965      1039       938       961       921
      954       957       918       991       933       936       919       940
     1001       934       989       949      1012       974       966       945
      969       947       914      1046       996       996      1029      1055
     1046      1080      1135      1145      1263      1339      1410      1516
     1621      1784      1935      2111      2123      2092      2109      1944
     1921      1698      1607      1494      1438      1430      1373      1378
     1283      1413      1381      1355      1266      1290      1204      1261
     1141      1181      1073      1103      1084      1053      1124      1111
     1183      1210      1404      1453      1651      1739      1849      1848
     2001      1957      2068      1980      2070      2172      2220      2477
     2459      2684      2897      2919      2822      2714      2569      2341
     2163      1933      1638      1492      1343      1196      1295      1243
     1206      1271      1447      1415      1728      1772      1933      1939
     2013      2019      1845      1725      1562      1461      1364      1172
     1124      1038      1024       979       989       996       983       959
      924       956       933       971       937       995       919       979
      960       931       968       967       935       924      1013      1032
      990      1048      1080       974      1086      1121      1184      1209
     1244      1195      1214      1184      1217      1176      1186      1166
     1111      1063      1090      1020       990       986      1032      1036
     1036      1048      1015      1004      1025      1016      1018      1000
      941      1020       958       963       909       924       947       962
      930       916       987       959       947       922       944       855
      934       911       895       951       905       977       885       896
      876       953       988       895       967       856       974       964
      948       928       998      1000      1016      1035      1085      1071
     1162      1212      1325      1473      1489      1472      1658      1608
     1433      1352      1223      1200      1136      1148      1077      1055
      919       908       896       923       936       970       982       953
      942       946       982       916       974       963       944       949
      955      1001       991      1038      1038      1017      1181      1151
     1317      1405      1527      1521      1586      1663      1610      1623
     1701      1612      1580      1482      1464      1392      1375      1375
     1293      1219      1117      1173      1131      1126      1102      1035
     1024      1007      1053      1092      1023      1120      1164      1293
     1403      1720      1963      2386      2906      3297      3639      4066
     4318      4627      4472      4210      3902      3464      3010      2777
     2290      1963      1676      1444      1263      1181      1081       998
      999       980      1023      1009       980      1005       962      1009
     1150      1195      1292      1317      1333      1425      1372      1497
     1443      1338      1291      1191      1130      1128       996       984
      949       977       876       929       942       869       845       852
      922       780       901       849       884       896       877       876
      858       816       862       880       885       812       855       879
      916       873       900       939       980       895       907       970
      998      1038      1083      1040      1129      1077      1120      1159
     1275      1222      1355      1351      1354      1352      1332      1284
     1319      1199      1217      1079      1062       991       913       922
      895       868       888       820       827       830       869       837
      804       793       791       798       811       810       781       795
      842       848       810       836       766       786       786       777
      769       835       784       759       788       863       813       771
      795       847       796       746       842       806       807       838
      788       810       775       842       803       755       843       820
      733       734       753       757       769       751       819       783
      791       754       816       818       780       780       845       752
      829       834       848       935       880       910       953       987
     1034      1015      1057      1013       999      1096      1106      1119
     1140      1198      1241      1196      1313      1203      1193      1102
     1069      1015      1073       943       921       890       818       830
      783       738       797       859       753       821       825       824
      847       811       889       917      1011       985      1260      1431
     1556      1731      1860      1983      1974      1996      1969      1931
     1717      1619      1469      1330      1164      1098      1060       976
      892       794       796       770       803       794       766       798
      813       750       778       784       741       787       754       744
      758       753       724       755       732       754       805       736
      798       741       762       761       788       760       806       808
      848       827       905       901      1013      1080      1294      1509
     1722      2194      2538      2836      3187      3440      3674      3569
     3588      3318      3008      2839      2783      2455      2136      1809
     1606      1427      1415      1319      1344      1411      1396      1620
     1766      1868      2115      2089      2039      1859      1796      1661
     1618      1528      1527      1209      1081       956       976       833
      837       850       798       731       796       744       743       738
      705       722       693       723       742       690       747       673
      726       756       754       670       705       732       715       725
      826       733       767       722       751       784       753       767
      785       765       777       801       758       811       776       844
      820       818       904       951      1039      1092      1271      1441
     1730      2007      2536      3105      3808      4625      5728      7061
     7950      7930      7974      7913      8402      8162      7816      6868
     5645      4932      4383      3937      3423      2750      2146      1658
     1358      1230      1154      1008      1046      1031       989      1083
     1098      1211      1224      1276      1247      1321      1338      1297
     1296      1268      1152      1106      1104      1045       999       941
      843       834       831       813       810       777       764       815
      875       928      1087      1206      1385      1553      1824      1906
     1933      1814      1683      1648      1549      1480      1415      1314
     1121       989       974       830       780       739       781       752
      697       679       664       638       667       670       673       638
      663       608       622       652       665       664       685       631
      668       679       659       690       669       685       686       659
      694       692       647       684       701       716       758       688
      740       800       746       890       935      1006      1105      1309
     1476      1476      1603      1573      1601      1522      1525      1678
     1677      1740      1875      2035      2284      2495      2908      3309
     3530      3668      3579      3605      3769      3653      3258      2919
     2560      2281      2034      1852      1658      1325      1142      1004
      877       858       821       731       724       705       647       676
      688       605       640       636       633       614       640       629
      612       617       653       608       661       642       655       695
      710       724       758       806       822       902      1071      1232
     1351      1525      1641      1746      1980      2065      2233      2215
     2138      1975      1839      1751      1606      1493      1400      1284
     1118      1024       887       797       745       725       728       686
      663       648       611       617       662       592       626       599
      617       607       636       654       639       639       680       676
      718       786       847       913      1091      1229      1467      1694
     1873      1961      2042      1960      1893      1742      1574      1581
     1437      1364      1292      1158      1127       942       866       853
      779       710       624       633       640       580       659       624
      655       648       634       679       670       716       711       768
      783       843       992      1180      1490      1684      2041      2300
     2662      2802      3207      3279      3025      2797      2532      2404
     2360      2351      2426      2339      2131      1984      1867      1729
     1664      1536      1495      1433      1377      1269      1243      1094
     1036       996       865       833       746       775       726       673
      627       640       624       650       620       606       587       566
      622       640       661       617       686       690       779       725
      719       740       734       678       697       687       667       631
      639       635       625       591       567       566       575       525
      587       577       522       545       550       552       557       568
      537       574       479       525       567       553       522       521
      535       517       536       520       514       556       573       556
      585       611       604       589       646       652       660       626
      723       723       728       671       724       740       770       803
      924       954      1006      1038      1031      1110      1259      1227
     1310      1261      1258      1229      1173      1059      1023      1000
      926       909       817       747       706       667       661       628
      614       579       559       566       549       602       559       572
      556       530       539       554       565       544       530       542
      504       527       505       548       533       554       576       518
      561       565       548       555       517       545       601       526
      605       614       592       652       704       693       821       915
     1061      1298      1528      1892      2275      2507      2960      3175
     3356      3232      3120      2848      2599      2454      2423      2259
     2329      2029      1866      1631      1335      1169      1042       933
      926       822       796       722       710       631       596       571
      558       596       528       584       580       600       556       553
      557       591       595       617       710       687       738       683
      655       681       652       643       641       649       673       616
      637       617       576       601       567       513       539       556
      551       550       557       581       536       559       541       611
      614       565       630       601       672       749       842       969
     1157      1230      1403      1615      1682      1892      1896      1808
     1770      1790      1702      1733      1864      1914      1981      1957
     2107      2091      1983      1997      1921      1873      1688      1512
     1387      1356      1257      1275      1196      1146      1122      1079
     1012       904       806       803       798       772       769       730
      773       759       727       757       770       770       776       822
      836       869       781       809       833       803       745       810
      718       728       713       707       662       697       640       616
      643       601       610       617       599       602       686       648
      733       825       927      1091      1013      1021      1014      1024
     1150      1246      1389      1665      1658      1610      1560      1622
     1639      1609      1606      1591      1514      1423      1289      1158
     1170      1086       996      1005       860       844       763       725
      720       731       833       771       837       849       848       823
      741       673       695       658       699       687       648       662
      593       613       549       573       543       531       559       554
      500       564       597       650       683       682       726       764
      744       792       801       695       748       707       715       712
      663       688       655       639       626       613       592       556
      526       604       604       605       617       648       661       736
      722       786       859       904       971      1059      1122      1110
     1101      1110      1188      1230      1183      1254      1301      1327
     1261      1132      1068      1053      1060       935       910       877
      835       793       812       776       714       684       658       663
      620       643       638       622       634       577       636       611
      633       650       627       553       608       577       561       547
      590       535       551       584       625       622       621       565
      641       629       614       559       610       607       574       552
      566       601       620       580       649       666       717       741
      753       841       838       863       941       906       951       956
      924       957      1011      1098      1180      1224      1314      1310
     1349      1352      1400      1648      1670      1692      1815      1831
     1874      1854      1924      1794      1651      1645      1595      1494
     1350      1365      1253      1178      1152      1069      1008       950
      901       789       768       752       832       865       947      1026
     1217      1426      1668      1888      2183      2323      2529      2615
     2543      2578      2315      2102      2059      1967      1925      1871
     1760      1677      1508      1324      1147      1076       872       850
      743       667       649       663       608       626       586       602
      592       606       631       629       705       785       855       931
      944       981      1000       936       922       939       938      1002
      875       974       985       914       864       872       824       847
      803       751       827       739       673       741       727       664
      712       633       642       602       593       626       648       620
      579       579       591       603       595       645       623       689
      613       610       626       637       577       671       630       607
      558       647       614       580       588       584       563       554
      583       542       533       580       576       546       531       550
      588       617       627       610       601       677       639       646
      696       764       747       839       864      1018      1082      1170
     1234      1320      1283      1498      1562      1587      1504      1526
     1508      1411      1416      1347      1293      1309      1316      1214
     1090      1095       996       909       963       908       808       783
      707       778       648       653       742       646       656       687
      698       672       740       789       806       927       894       931
      983       947       988      1027      1015      1015      1052       936
      907       875       845       850       808       821       814       821
      783       861       867       949      1165      1434      1638      1996
     2013      2275      2426      2357      2450      2331      2115      2122
     2108      2177      2121      2013      2057      2027      2016      1829
     1750      1590      1520      1418      1361      1212      1225      1097
     1095       978       973       970       972       867       806       890
      865       905       920       929       978      1030      1038      1144
     1372      1539      1813      2041      2195      2297      2302      2167
     1957      1909      1890      1765      1801      1821      1794      1835
     1729      1653      1525      1413      1298      1193      1111      1029
      934       990       917       871       799       819       802       735
      771       751       747       765       730       740       758       829
      759       809       770       723       744       752       783       845
      917       854       910       983      1066      1105      1121      1140
     1161      1214      1203      1206      1189      1189      1174      1234
     1147      1260      1221      1250      1181      1243      1187      1153
     1116      1116      1025      1009       953       940       945       906
      925       913       926       827       788       730       722       727
      687       628       643       619       610       599       563       551
      514       528       523       536       508       516       477       486
      492       488       520       490       479       506       503       504
      528       426       521       455       492       485       488       494
      524       502       551       522       475       496       495       500
      477       524       506       502       549       486       533       547
      563       572       567       597       694       741       801       913
     1006      1113      1203      1303      1376      1397      1439      1442
     1384      1337      1264      1164      1162      1051      1131      1157
     1096      1085      1087       972       982       902       829       805
      719       709       732       655       663       653       658       614
      617       657       649       686       708       730       693       757
      804       803       835       862       858       860       888       971
      931       963      1008      1019      1027       998       991      1039
     1018      1067      1113      1145      1142      1168      1266      1268
     1256      1229      1287      1225      1137      1114      1101       990
      982      1068       971      1032      1123      1075       965       896
      847       810       810       771       751       783       806       864
      834       884       865       857       821       812       794       807
      764       734       706       756       697       671       633       669
      656       637       635       613       628       602       604       651
      622